ConditionCode,Condition,PlayerA,PlayerB,TrialNum,TrialType,EncounterIntro,PlayerAction,RewardFeedback,PunishFeedback,EncounterPlayer,scenDelay,ImageDisarded.thisRepN,ImageDisarded.thisTrialN,ImageDisarded.thisN,ImageDisarded.thisIndex,exp_wrapper.thisRepN,exp_wrapper.thisTrialN,exp_wrapper.thisN,exp_wrapper.thisIndex,Encounters_Loop.thisRepN,Encounters_Loop.thisTrialN,Encounters_Loop.thisN,Encounters_Loop.thisIndex,thisRow.t,notes,Choose_Condition.started,InputSlider_Gender.started,InputSlider_Race.started,InputSlider_InOut.started,InputSlider_Swap.started,ProgressScreen.started,header.started,Choose_Condition.stopped,InputSlider_Gender.response,InputSlider_Gender.rt,InputSlider_Race.response,InputSlider_Race.rt,InputSlider_InOut.response,InputSlider_InOut.rt,InputSlider_Swap.response,InputSlider_Swap.rt,ProgressScreen.numClicks,ProgressScreen.timesOn,ProgressScreen.timesOff,Participant_Name.started,NameInput.started,participantName.started,button.started,Participant_Name.stopped,participantName.text,button.numClicks,button.timesOn,button.timesOff,WaitForScanner_discard.started,SyncPulse_discard.started,fix.started,WaitForScanner_discard.stopped,SyncPulse_discard.keys,SyncPulse_discard.rt,SyncPulse_discard.duration,W4S_Baseline.started,SyncPulse_Baseline.started,fix_baseline.started,W4S_Baseline.stopped,SyncPulse_Baseline.keys,SyncPulse_Baseline.rt,SyncPulse_Baseline.duration,BaselineFixation.started,Baseline.started,Baseline.stopped,BaselineFixation.stopped,Instructions.started,Instructions_Text.started,Instructions.stopped,Delay.started,movie.started,Delay.stopped,Loading_Screen.started,PlayerLobby.started,Gamemaster.started,playerName.started,player1.started,loading.started,player2.started,loading2.started,player1_box.started,player2_box.started,loading.stopped,player1Reveal.started,loading2.stopped,player2Reveal.started,player1Reveal.stopped,Loading_Screen.stopped,Loading_Complete.started,loadingComplete.started,textbox.started,next.started,key_response.started,Loading_Complete.stopped,key_response.keys,key_response.rt,key_response.duration,Scenario_Intro.started,intro.started,intro.stopped,Scenario_Intro.stopped,W4S_Encounter.started,SyncPulse_Encounter.started,fix_encounter.started,W4S_Encounter.stopped,SyncPulse_Encounter.keys,SyncPulse_Encounter.rt,SyncPulse_Encounter.duration,Encounter_Intro.started,Encounter_intro.started,Encounter_Intro.stopped,Delay_2.started,movie3.started,ActionPrompt.started,movie3.stopped,ActionPrompt.stopped,Delay_2.stopped,W4S_Action.started,SyncPulse_Action.started,fix_Action.started,W4S_Action.stopped,SyncPulse_Action.keys,SyncPulse_Action.rt,SyncPulse_Action.duration,Player_Action.started,player_action_instructions.started,player_action_keys_punish.started,PlayerAction_text.started,RewardBox.started,PunishBox.started,player_action_keys_reward.started,rewardConfirmText.started,punishConfirmText.started,Player_Action.stopped,player_action_keys_punish.keys,player_action_keys_reward.keys,player_action_keys_reward.rt,player_action_keys_reward.duration,Feedback.started,Reward_Feedback.started,Punish_Feedback.started,Faster_feedback.started,Feedback.stopped,Reward_Feedback.stopped,Punish_Feedback.stopped,Faster_feedback.stopped,player_action_keys_punish.rt,player_action_keys_punish.duration,Conclusion.started,conclusionText.started,next2.started,keyResp3.started,Conclusion.stopped,keyResp3.keys,keyResp3.rt,keyResp3.duration,participant,session,date,expName,psychopyVersion,frameRate,expStart,
,,,,,,,,,,,,0,0,0,0,,,,,,,,,10.275828300000285,,0.0018801999976858497,0.040642099993419833,0.040642099993419833,0.040642099993419833,0.040642099993419833,0.040642099993419833,0.040642099993419833,4.981085399995209,1,3.3262564999895403,0,3.909657899988815,0,4.193278199993074,0,4.70939350000117,1,[4.954539500002284],[4.9545440999936545],4.98118699999759,4.992286399996374,4.992286399996374,4.992286399996374,10.25990209999145,Shinjini,1,[5.277823600001284],[5.2778287999972235],10.260477599993465,10.275828300000285,10.275828300000285,22.510137199991732,5,12.22825310000917,None,,,,,,,,,,,,,,,,,,,,,,,,,,,,,,,,,,,,,,,,,,,,,,,,,,,,,,,,,,,,,,,,,,,,,,,,,,,,,,,,,,,,,,,,,,,,,,,,,,,,,,Plt2_Run1,001,2024-02-15_16h00.48.271,AdvTask_fMRI_masculinePronouns,2023.2.2,59.912850764540465,2024-02-15 16h00.59.705340 -0500,
,,,,,,,,,,,,1,0,1,0,,,,,,,,,22.52593249999336,,,,,,,,,,,,,,,,,,,,,,,,,,,,,,22.512810000000172,22.52593249999336,22.52593249999336,23.50961819999793,5,0.9785784999985481,None,,,,,,,,,,,,,,,,,,,,,,,,,,,,,,,,,,,,,,,,,,,,,,,,,,,,,,,,,,,,,,,,,,,,,,,,,,,,,,,,,,,,,,,,,,,,,,,,,,,,,,Plt2_Run1,001,2024-02-15_16h00.48.271,AdvTask_fMRI_masculinePronouns,2023.2.2,59.912850764540465,2024-02-15 16h00.59.705340 -0500,
,,,,,,,,,,,,2,0,2,0,,,,,,,,,23.52600589999929,,,,,,,,,,,,,,,,,,,,,,,,,,,,,,23.51016669999808,23.52600589999929,23.52600589999929,24.50954559999809,5,0.9784793999860995,None,,,,,,,,,,,,,,,,,,,,,,,,,,,,,,,,,,,,,,,,,,,,,,,,,,,,,,,,,,,,,,,,,,,,,,,,,,,,,,,,,,,,,,,,,,,,,,,,,,,,,,Plt2_Run1,001,2024-02-15_16h00.48.271,AdvTask_fMRI_masculinePronouns,2023.2.2,59.912850764540465,2024-02-15 16h00.59.705340 -0500,
,,,,,,,,,,,,3,0,3,0,,,,,,,,,24.525933400000213,,,,,,,,,,,,,,,,,,,,,,,,,,,,,,24.510037899992312,24.525933400000213,24.525933400000213,25.509595499999705,5,0.9781521999975666,None,,,,,,,,,,,,,,,,,,,,,,,,,,,,,,,,,,,,,,,,,,,,,,,,,,,,,,,,,,,,,,,,,,,,,,,,,,,,,,,,,,,,,,,,,,,,,,,,,,,,,,Plt2_Run1,001,2024-02-15_16h00.48.271,AdvTask_fMRI_masculinePronouns,2023.2.2,59.912850764540465,2024-02-15 16h00.59.705340 -0500,
,,,,,,,,,,,,,,,,,,,,,,,,,,,,,,,,,,,,,,,,,,,,,,,,,,,,,,,,,,,,,25.509963199991034,25.52587179999682,25.52587179999682,26.50968999999168,5,0.9785584000055678,None,,,,,,,,,,,,,,,,,,,,,,,,,,,,,,,,,,,,,,,,,,,,,,,,,,,,,,,,,,,,,,,,,,,,,,,,,,,,,,,,,,,,,,,,,,,,,,,Plt2_Run1,001,2024-02-15_16h00.48.271,AdvTask_fMRI_masculinePronouns,2023.2.2,59.912850764540465,2024-02-15 16h00.59.705340 -0500,
1000,WhiteFemale_InGrp,Becky,Emma,1,STR,"A gate opens in front of the duo, and a menacing mechanical golem with a crossbow becomes activated.",Becky lunges forward attempting to force her blade through the protective plate.,Becky’s sword pierces the plate and destroys the construct before it is able to shoot. She is able to proceed uninjured.,Becky’s sword grazes the exterior plate. She is shot by the crossbow and is injured.,Becky,6,,,,,0,0,0,0,0,0,0,0,112.73703239999304,,,,,,,,,,,,,,,,,,,,,,,,,,,,,,,,,,,,,,,,,,,,26.509725199997774,26.525855899992166,42.53358489999664,42.50952900000266,42.527335899998434,42.53358489999664,78.02576709999994,78.02578379999613,78.04236239999591,80.02580699999817,80.16741949999414,80.24971209999057,80.24971209999057,80.24971209999057,80.24971209999057,80.24971209999057,80.24971209999057,80.24971209999057,80.24971209999057,80.24971209999057,85.88803459999326,86.0130749999953,91.92315149999922,92.02540859999135,95.02526070000022,95.0254147999949,95.25846840000304,95.26862589998927,95.26862589998927,95.26862589998927,95.26862589998927,97.20790829999896,2,1.9344827000022633,0.0011639000003924593,97.20839139999589,97.22508609999204,112.73703239999304,112.70805329999712,112.7350560999912,112.73703239999304,112.73703239999304,113.50908329999947,5,0.7670536000077846,None,113.50955119999708,113.53524289999041,119.52457490000234,119.52458599999954,119.55903069999476,119.55903069999476,125.82688029999554,125.82688029999554,125.68527109999559,125.8206768999953,125.82688029999554,125.82688029999554,126.51073979999637,5,0.6774933999986388,None,126.51147479999054,126.5695873999939,126.5695873999939,126.5695873999939,126.5695873999939,126.5695873999939,126.5695873999939,126.5695873999939,126.5695873999939,130.75469789998897,None,"['1', '1']","[3.1834452000039164, 4.156685500012827]","[0.0009824000007938594, 0.0009380999981658533]",130.75509710000188,130.7695878999948,130.7695878999948,130.7695878999948,135.75851020000118,,,,,,,,,,,,,,Plt2_Run1,001,2024-02-15_16h00.48.271,AdvTask_fMRI_masculinePronouns,2023.2.2,59.912850764540465,2024-02-15 16h00.59.705340 -0500,
1000,WhiteFemale_InGrp,Becky,Emma,2,INT,"In the next room, the adventurers encounter a massive stone door with intricate runes. The inscription reads, "Solve the riddle to reveal what is behind." ",Emma relies on her wit to decipher the riddle. ,"Emma correctly deciphers the riddle, causing the stone door to open smoothly. She finds a small room filled with treasure.","Emma misinterprets the riddle, instead triggering a magical flash. She takes damage.",Emma,6,,,,,0,0,0,0,0,1,1,1,135.77528750000056,,,,,,,,,,,,,,,,,,,,,,,,,,,,,,,,,,,,,,,,,,,,,,,,,,,,,,,,,,,,,,,,,,,,,,,,,,,,,,,,,,,135.75880589999724,135.77528750000056,135.77528750000056,136.50955989999056,5,0.7289775999961421,None,136.51006770000095,136.54139069998928,142.54240439999558,142.54241799999727,142.55637099999876,142.55637099999876,148.79051710000203,148.79051710000203,148.64932009999757,148.78488249999646,148.79051710000203,148.79051710000203,149.50896069999726,5,0.7138770000019576,None,149.5093213999935,149.54124219999358,149.54124219999358,149.54124219999358,149.54124219999358,149.54124219999358,149.54124219999358,149.54124219999358,149.54124219999358,152.14219929999672,None,"['1', '1']","[2.0007343999895966, 2.5677173000003677]","[None, 0.0009500000014668331]",152.1424524000031,152.15701699999045,152.15701699999045,152.15701699999045,157.14206689999264,157.1585761000024,157.1585761000024,157.1585761000024,,,,,,,,,,,Plt2_Run1,001,2024-02-15_16h00.48.271,AdvTask_fMRI_masculinePronouns,2023.2.2,59.912850764540465,2024-02-15 16h00.59.705340 -0500,
1000,WhiteFemale_InGrp,Becky,Emma,3,INT,"The floor is covered in a thick layer of mist. A booming voice announces, "Use your wit to navigate the mist or the mist might bite."",Becky decides to use her intuition to find a way through the mist.,"Becky cleverly observes the patterns in the mist, using her intelligence to discern a safe path and reach the other side unharmed.","Becky's vision is blocked by the mist, causing her to trip,  triggering a hidden trap. She suffers an injury.",Becky,7,,,,,0,0,0,0,0,2,2,2,157.1585761000024,,,,,,,,,,,,,,,,,,,,,,,,,,,,,,,,,,,,,,,,,,,,,,,,,,,,,,,,,,,,,,,,,,,,,,,,,,,,,,,,,,,157.142394399998,157.1585761000024,157.1585761000024,157.50884169999335,5,0.34684959999867715,None,157.50914229999762,157.5337215999898,163.52988180000102,163.52989469999739,163.54489579999063,163.54489579999063,170.8322130000015,170.8322130000015,170.68936069999472,170.8259820999956,170.8322130000015,170.8322130000015,171.5086886999925,5,0.6729865999950562,None,171.50899879999633,171.53863609999826,171.53863609999826,171.53863609999826,171.53863609999826,171.53863609999826,171.53863609999826,171.53863609999826,171.53863609999826,174.44300040000235,None,"['1', '1']","[2.2164812000119127, 2.8824376000120537]","[0.0008989999914774671, 0.0009979999886127189]",174.44324649999908,174.45680179999908,174.45680179999908,174.45680179999908,179.44209859998955,179.45850470000005,179.45850470000005,179.45850470000005,,,,,,,,,,,Plt2_Run1,001,2024-02-15_16h00.48.271,AdvTask_fMRI_masculinePronouns,2023.2.2,59.912850764540465,2024-02-15 16h00.59.705340 -0500,
1000,WhiteFemale_InGrp,Becky,Emma,4,STR,"A gigantic salamander emerges from the shadows, hungry for flesh.",Emma tries to climb on the salamander’s back. She wrestles it into a choke hold.,Emma chokes the salamander into unconsciousness. She is unharmed in the encounter.,"The salamander’s giant maw bites Emma’s arm. She takes damage, but the salamander cowers into its den.",Emma,7,,,,,0,0,0,0,0,3,3,3,179.45850470000005,,,,,,,,,,,,,,,,,,,,,,,,,,,,,,,,,,,,,,,,,,,,,,,,,,,,,,,,,,,,,,,,,,,,,,,,,,,,,,,,,,,179.44247449999966,179.45850470000005,179.45850470000005,179.50864709999587,5,0.047075199996470474,None,179.50898879999295,179.53293329999724,185.52899059999618,185.52900119998958,185.54166770000302,185.54166770000302,192.82199579999724,192.82199579999724,192.67966829999932,192.81577370000014,192.82199579999724,192.82199579999724,194.5085906000022,5,1.6836485999956494,None,194.50893139999243,194.541748299991,194.541748299991,194.541748299991,194.541748299991,194.541748299991,194.541748299991,194.541748299991,194.541748299991,197.76129450000008,None,"['1', '1']","[2.442365400012932, 3.1754646000044886]","[0.0008822999952826649, 0.0008362000080524012]",197.7619221999921,197.78155739999784,197.78155739999784,197.78155739999784,202.77486859999772,,,,,,,,,,,,,,Plt2_Run1,001,2024-02-15_16h00.48.271,AdvTask_fMRI_masculinePronouns,2023.2.2,59.912850764540465,2024-02-15 16h00.59.705340 -0500,
1000,WhiteFemale_InGrp,Becky,Emma,5,INT,The floor between the entrance and exit of this chamber is segmented by large tiles with magical symbols. The tiles rest over a sticky tar-like substance. ,Emma attempts to rely on her intellect to solve the puzzle of the magical symbols.,Emma correctly identifies the sequence of tiles necessary to get across. She is showered by applause from the crowd.,Emma repeatedly steps on incorrect tiles but manages to make it across. She loses some valuables from her pack to the tar-like substance.,Emma,8,,,,,0,0,0,0,0,4,4,4,202.79157269999268,,,,,,,,,,,,,,,,,,,,,,,,,,,,,,,,,,,,,,,,,,,,,,,,,,,,,,,,,,,,,,,,,,,,,,,,,,,,,,,,,,,202.77516029999242,202.79157269999268,202.79157269999268,203.50861319999967,5,0.7139502000063658,None,203.5089178999915,203.53698679999798,209.529555599991,209.52956670000276,209.56633319999673,209.56633319999673,217.87158209999325,217.87158209999325,217.72879579999426,217.86501729999145,217.87158209999325,217.87158209999325,218.50852589998976,5,0.6339446000056341,None,218.50882909999928,218.5416242999927,218.5416242999927,218.5416242999927,218.5416242999927,218.5416242999927,218.5416242999927,218.5416242999927,218.5416242999927,221.6604049000016,None,"['1', '1']","[2.35043510000105, 3.0686329000018304]","[0.0009142000053543597, 0.0008105000015348196]",221.66103139999905,221.68166010000277,221.68166010000277,221.68166010000277,226.67464579999796,,,,,,,,,,,,,,Plt2_Run1,001,2024-02-15_16h00.48.271,AdvTask_fMRI_masculinePronouns,2023.2.2,59.912850764540465,2024-02-15 16h00.59.705340 -0500,
1000,WhiteFemale_InGrp,Becky,Emma,6,STR,An ogre emerges from a lift in the center of the room,Becky leaps at the ogre. She attempts to land a killing blow.,"Becky stabs the ogre in the chest, killing it instantly. She is met by roaring applause from the audience watching from above.",Becky stabs the ogre in the chest but fails to kill it instantly. She is bashed by the ogre’s fist dealing damage before it bleeds to death.,Becky,7,,,,,0,0,0,0,0,5,5,5,226.69147609999345,,,,,,,,,,,,,,,,,,,,,,,,,,,,,,,,,,,,,,,,,,,,,,,,,,,,,,,,,,,,,,,,,,,,,,,,,,,,,,,,,,,226.6749226999964,226.69147609999345,226.69147609999345,227.50847659999272,5,0.8141117000050144,None,227.5087777000008,227.5352964999911,233.53140859999985,233.53141899999173,233.56121289999282,233.56121289999282,240.8460858999897,240.8460858999897,240.70459449999908,240.84011170000304,240.8460858999897,240.8460858999897,241.5083694999921,5,0.6595025999995414,None,241.50870900000155,241.5444112999976,241.5444112999976,241.5444112999976,241.5444112999976,241.5444112999976,241.5444112999976,241.5444112999976,241.5444112999976,244.4079025999963,"['2', '2']",None,,,244.40826329999254,244.42439649999142,244.42439649999142,244.42439649999142,249.40811009999015,249.4246828000032,249.4246828000032,249.4246828000032,"[1.9710210000048392, 2.835766300006071]","[0.0006950999959371984, None]",,,,,,,,,Plt2_Run1,001,2024-02-15_16h00.48.271,AdvTask_fMRI_masculinePronouns,2023.2.2,59.912850764540465,2024-02-15 16h00.59.705340 -0500,
1000,WhiteFemale_InGrp,Becky,Emma,7,STR,The floor of the next room is covered with small spikes.,Emma tries to use their strength to push a nearby boulder. She pushes in the direction of the spikes.,Emma successfully pushes the boulder carving a path along the spikes. She makes it across safely.,Emma fails to push the boulder and slips in the process. She suffer damage but is able to make it across.,Emma,9,,,,,0,0,0,0,0,6,6,6,249.4246828000032,,,,,,,,,,,,,,,,,,,,,,,,,,,,,,,,,,,,,,,,,,,,,,,,,,,,,,,,,,,,,,,,,,,,,,,,,,,,,,,,,,,249.40841389998968,249.4246828000032,249.4246828000032,249.50829339999473,5,0.08052669999597128,None,249.50856560000102,249.53382579999743,255.53283419999934,255.53284420000273,255.56108369999856,255.56108369999856,264.8071288999927,264.8071288999927,264.6696976999956,264.8049294999946,264.8071288999927,264.8071288999927,265.508319399989,5,0.6982624000083888,None,265.50865679999697,265.54435489999014,265.54435489999014,265.54435489999014,265.54435489999014,265.54435489999014,265.54435489999014,265.54435489999014,265.54435489999014,269.5642611999938,None,"['1', '1']","[3.2129147999949055, 3.9876915000058943]","[0.0008899000094970688, 0.0009982999908970669]",269.56450870000117,269.5749469000002,269.5749469000002,269.5749469000002,274.57460269999865,,,,,,,,,,,,,,Plt2_Run1,001,2024-02-15_16h00.48.271,AdvTask_fMRI_masculinePronouns,2023.2.2,59.912850764540465,2024-02-15 16h00.59.705340 -0500,
1000,WhiteFemale_InGrp,Becky,Emma,8,INT,Inside the next chamber is puzzle box that requires a sequence of clever moves to open. ,Becky tries to rely on her intelligence to open the box.,Becky was able to successfully open the box finding a valuable gemstone. She adds the gemstone to her pack.,"After too many failed attempts, the box explodes in Becky’s hand. She suffers damage. ",Becky,6,,,,,0,0,0,0,0,7,7,7,274.59116090000316,,,,,,,,,,,,,,,,,,,,,,,,,,,,,,,,,,,,,,,,,,,,,,,,,,,,,,,,,,,,,,,,,,,,,,,,,,,,,,,,,,,274.57485439999436,274.59116090000316,274.59116090000316,275.50819809999666,5,0.9142707999999402,None,275.5085015999939,275.5379910999909,281.5361527999921,281.53616269999475,281.5607733999932,281.5607733999932,287.83427009999286,287.83427009999286,287.68831990000035,287.8239843999909,287.83427009999286,287.83427009999286,288.5082391999895,5,0.6711833000008482,None,288.5086164999957,288.5454791999946,288.5454791999946,288.5454791999946,288.5454791999946,288.5454791999946,288.5454791999946,288.5454791999946,288.5454791999946,290.40207749999536,None,"['1', '1']","[1.2927300000010291, 1.8246371999994153]","[0.0009508999937679619, 0.000942600003327243]",290.40232149999065,290.4120389000018,290.4120389000018,290.4120389000018,295.40665619999345,,,,,,,,,,,,,,Plt2_Run1,001,2024-02-15_16h00.48.271,AdvTask_fMRI_masculinePronouns,2023.2.2,59.912850764540465,2024-02-15 16h00.59.705340 -0500,
1000,WhiteFemale_InGrp,Becky,Emma,9,STR,A wizard shoots an ice blast towards the players.,Emma holds up a shield and tries to overpower the blast. She then attacks the wizard.,Emma holds steady with the shield. She stabs the wizard. ,Emma’s shield gets blown away from the blast. She stabs the wizard but is damaged from the blast.,Emma,7,,,,,0,0,0,0,0,8,8,8,295.4244472999999,,,,,,,,,,,,,,,,,,,,,,,,,,,,,,,,,,,,,,,,,,,,,,,,,,,,,,,,,,,,,,,,,,,,,,,,,,,,,,,,,,,295.40704169998935,295.4244472999999,295.4244472999999,295.5080447999935,5,0.08103510001092218,None,295.5083401000011,295.538247199991,301.532770299993,301.5327802999964,301.56997660000343,301.56997660000343,308.85800619999645,308.85800619999645,308.7160198999918,308.8523195000016,308.85800619999645,308.85800619999645,309.50812849999056,5,0.6475893999886466,None,309.5084344999923,309.54654969999683,309.54654969999683,309.54654969999683,309.54654969999683,309.54654969999683,309.54654969999683,309.54654969999683,309.54654969999683,311.71612040000036,"['2', '2']",None,,,311.71636419999413,311.7253805999935,311.7253805999935,311.7253805999935,316.72445219999645,,,,"[1.4266013000014937, 2.1208324000035645]","[None, 0.0008173999958671629]",,,,,,,,,Plt2_Run1,001,2024-02-15_16h00.48.271,AdvTask_fMRI_masculinePronouns,2023.2.2,59.912850764540465,2024-02-15 16h00.59.705340 -0500,
1000,WhiteFemale_InGrp,Becky,Emma,10,INT,A ditch of dense noxious gas separates the entrance and exit of this chamber. On the entrance wall is a series of crystals flashing rythmically.,Becky attempts to use her wit to solve the mystery of the crystals.,Becky deciphers that the crystals required a specific sequence of touches. She inputs the sequence and waits for the gas to dissipate before proceeding.,Becky is unable to decipher the mystery of the flashing crystals. She runs across and suffers damage before pulling a lever dissipating the gas.,Becky,8,,,,,0,0,0,0,0,9,9,9,316.7409750999941,,,,,,,,,,,,,,,,,,,,,,,,,,,,,,,,,,,,,,,,,,,,,,,,,,,,,,,,,,,,,,,,,,,,,,,,,,,,,,,,,,,316.72472719999496,316.7409750999941,316.7409750999941,317.5081155999942,5,0.7643711999990046,None,317.5084823999932,317.54407920000085,323.541438699991,323.54144980000274,323.5591034999961,323.5591034999961,331.8288460999902,331.8288460999902,331.68648920000123,331.8227954999893,331.8288460999902,331.8288460999902,332.5077375999972,5,0.676925099993241,None,332.50807239999995,332.5473619999975,332.5473619999975,332.5473619999975,332.5473619999975,332.5473619999975,332.5473619999975,332.5473619999975,332.5473619999975,334.58776450000005,None,"['1', '1']","[1.5298182999977143, 2.00774589998764]","[0.0009008999913930893, 0.000987200008239597]",334.5880068999977,334.5997167000023,334.5997167000023,334.5997167000023,339.5907106999948,,,,,,,,,,,,,,Plt2_Run1,001,2024-02-15_16h00.48.271,AdvTask_fMRI_masculinePronouns,2023.2.2,59.912850764540465,2024-02-15 16h00.59.705340 -0500,
1000,WhiteFemale_InGrp,Becky,Emma,11,STR,The duo enter a room with scalding steam vents. A rusted wheel controlling the steam flow is fixed to the wall.,Becky relies on their strength to try and turn the wheel. She tries with all their might.,Becky successfully turns the valve shutting off the steam. She creates safe passage to the next chamber.,Becky is unable to turn the wheel. She is forced to dash across the hot steam and takes damage in the process.,Becky,8,,,,,0,0,0,0,0,10,10,10,339.607299700001,,,,,,,,,,,,,,,,,,,,,,,,,,,,,,,,,,,,,,,,,,,,,,,,,,,,,,,,,,,,,,,,,,,,,,,,,,,,,,,,,,,339.590956,339.607299700001,339.607299700001,340.50774939999974,5,0.8984669000055874,None,340.50807799999893,340.54493889999867,346.53739230000065,346.5374026999925,346.5533957000007,346.5533957000007,354.82283550000284,354.82283550000284,354.680512299994,354.8167162000027,354.82283550000284,354.82283550000284,355.5077806999907,5,0.6834703000058653,None,355.5080903999915,355.55186009999306,355.55186009999306,355.55186009999306,355.55186009999306,355.55186009999306,355.55186009999306,355.55186009999306,355.55186009999306,358.0752336000005,"['2', '2']",None,,,358.07548109999334,358.0904164999956,358.0904164999956,358.0904164999956,363.074166099992,363.0907531999983,363.0907531999983,363.0907531999983,"[1.8215452000004007, 2.4805063999956474]","[0.001141000000643544, 0.0009901000012177974]",,,,,,,,,Plt2_Run1,001,2024-02-15_16h00.48.271,AdvTask_fMRI_masculinePronouns,2023.2.2,59.912850764540465,2024-02-15 16h00.59.705340 -0500,
1000,WhiteFemale_InGrp,Becky,Emma,12,STR,A zombie emerges from the corner and swings its club.,Emma reflexively tried to grab the club. her attempts to overpower the swing. ,Emma successfully stops the blow. She decapitates the zombie in retaliation.,Emma is unable to stop the attack before and suffers damage. She was able to decapitate the zombie in retaliation.,Emma,8,,,,,0,0,0,0,0,11,11,11,363.0907531999983,,,,,,,,,,,,,,,,,,,,,,,,,,,,,,,,,,,,,,,,,,,,,,,,,,,,,,,,,,,,,,,,,,,,,,,,,,,,,,,,,,,363.07448919999297,363.0907531999983,363.0907531999983,363.5076556999993,5,0.4156185000028927,None,363.50795169999765,363.54900309999357,369.54367990000173,369.5436903999944,369.5809675999917,369.5809675999917,377.816006699999,377.816006699999,377.6743049999932,377.809863100003,377.816006699999,377.816006699999,378.50773189999745,5,0.6903714000072796,None,378.50806969999394,378.5525525999983,378.5525525999983,378.5525525999983,378.5525525999983,378.5525525999983,378.5525525999983,378.5525525999983,378.5525525999983,382.19239349999407,"['2', '2']",None,,,382.192993699995,382.21041349999723,382.21041349999723,382.21041349999723,387.2064231999975,,,,"[2.1627086000080453, 3.5887023999966914]","[0.0009626999963074923, 0.000936100012040697]",,,,,,,,,Plt2_Run1,001,2024-02-15_16h00.48.271,AdvTask_fMRI_masculinePronouns,2023.2.2,59.912850764540465,2024-02-15 16h00.59.705340 -0500,
1000,WhiteFemale_InGrp,Becky,Emma,13,INT,A vast pit connects the entrance and exit to the chamber. ,Emma tries to leverage her cleverness to devise a way to cross.,Emma’s throws dirt over the gap. She reveals an invisible bridge and makes it across safely.,Emma’s unsuccessfully tries to think of a plan. She jumps across but drops some valuables from her pack.,Emma,6,,,,,0,0,0,0,0,12,12,12,387.22406619999674,,,,,,,,,,,,,,,,,,,,,,,,,,,,,,,,,,,,,,,,,,,,,,,,,,,,,,,,,,,,,,,,,,,,,,,,,,,,,,,,,,,387.2068789999903,387.22406619999674,387.22406619999674,387.5079942000011,5,0.2823266000050353,None,387.508431299997,387.5493507999927,393.54107849999855,393.541089499995,393.5789226999914,393.5789226999914,399.88491700000304,399.88491700000304,399.74289249999856,399.8786262999929,399.88491700000304,399.88491700000304,400.5076216000016,5,0.621509699994931,None,400.507958999995,400.5525011999998,400.5525011999998,400.5525011999998,400.5525011999998,400.5525011999998,400.5525011999998,400.5525011999998,400.5525011999998,402.6945812999911,None,"['1', '1']","[1.4577857000113, 2.089759700000286]","[0.0008568999910494313, 0.00102530000731349]",402.69483009999385,402.70679579999705,402.70679579999705,402.70679579999705,407.68951650000236,407.70712549999007,407.70712549999007,407.70712549999007,,,,,,,,,,,Plt2_Run1,001,2024-02-15_16h00.48.271,AdvTask_fMRI_masculinePronouns,2023.2.2,59.912850764540465,2024-02-15 16h00.59.705340 -0500,
1000,WhiteFemale_InGrp,Becky,Emma,14,INT,A blind serpent patrols the next room.,Becky tries to rely on her cleverness to silently outmanuever the serpent.,Becky throws a pebble to distract the serpent. She successfully distract it long enough and makes it through.,Becky tries to sneak across but slips. She makes it passed but the serpent bites their pack causing some valuables to spill.,Becky,7,,,,,0,0,0,0,0,13,13,13,407.70712549999007,,,,,,,,,,,,,,,,,,,,,,,,,,,,,,,,,,,,,,,,,,,,,,,,,,,,,,,,,,,,,,,,,,,,,,,,,,,,,,,,,,,407.68981399999757,407.70712549999007,407.70712549999007,408.5075511000032,5,0.7992685999925015,None,408.50785319998977,408.5484609999985,414.54543099999137,414.54544129999704,414.5567003999895,414.5567003999895,421.8446344999975,421.8446344999975,421.70205700000224,421.83842699999514,421.8446344999975,421.8446344999975,422.5077378999995,5,0.6619185000017751,None,422.50818140000047,422.5588885000034,422.5588885000034,422.5588885000034,422.5588885000034,422.5588885000034,422.5588885000034,422.5588885000034,422.5588885000034,426.2224928999931,None,"['1', '1']","[2.959460300000501, 3.6083425999968313]","[0.0008117999968817458, 0.0012865000026067719]",426.2227439999988,426.23327229999995,426.23327229999995,426.23327229999995,431.22379309999815,,,,,,,,,,,,,,Plt2_Run1,001,2024-02-15_16h00.48.271,AdvTask_fMRI_masculinePronouns,2023.2.2,59.912850764540465,2024-02-15 16h00.59.705340 -0500,
1000,WhiteFemale_InGrp,Becky,Emma,15,STR,A bridge across a chasm is lifted to be usable by a series of pulleys attached to a chain.,Emma tries to muster her strength to pull the platform up.,Emma successfully pulls the bridge up. She latches it to a nearby pillar.,Emma only partically pulls up the lift but not enough to be useable. She is forced to jump across dropping some valuables from their pack in the process. ,Emma,6,,,,,0,0,0,0,0,14,14,14,431.24028250000265,,,,,,,,,,,,,,,,,,,,,,,,,,,,,,,,,,,,,,,,,,,,,,,,,,,,,,,,,,,,,,,,,,,,,,,,,,,,,,,,,,,431.2241126000008,431.24028250000265,431.24028250000265,431.5072446999984,5,0.2660848000086844,None,431.50754379999125,431.5506575999898,437.50762279999617,437.5076442999998,437.56129409999994,437.56129409999994,443.8538919999992,443.8538919999992,443.71212399999786,443.8476742999919,443.8538919999992,443.8538919999992,444.5079523000022,5,0.6526549999980489,None,444.5084790999972,444.56226120000065,444.56226120000065,444.56226120000065,444.56226120000065,444.56226120000065,444.56226120000065,444.56226120000065,444.56226120000065,449.6837395999901,"['2', '2']",None,,,449.68398689999594,449.69486119999783,449.69486119999783,449.69486119999783,454.6891822999896,,,,"[4.579220200001146, 5.072308500006329]","[0.0009657000045990571, 0.0006767000013496727]",,,,,,,,,Plt2_Run1,001,2024-02-15_16h00.48.271,AdvTask_fMRI_masculinePronouns,2023.2.2,59.912850764540465,2024-02-15 16h00.59.705340 -0500,
1000,WhiteFemale_InGrp,Becky,Emma,16,INT,A magical mirror is sits in the middle of the room. It hypnotizes the adventuerers by reflecting their deepest fears,Becky relies on her mental aptitude to overcome the psychic attack.,Becky successfully breaks the hypnosis. She shatters the mirror dispelling the effect.,Becky eventually overcomes the mental anguish and is able to break the mirror. She suffers damage due to the mirror's effects.,Becky,7,,,,,0,0,0,0,0,15,15,15,454.7066003999935,,,,,,,,,,,,,,,,,,,,,,,,,,,,,,,,,,,,,,,,,,,,,,,,,,,,,,,,,,,,,,,,,,,,,,,,,,,,,,,,,,,454.6894966999971,454.7066003999935,454.7066003999935,455.50761819999025,5,0.7998452000028919,None,455.50811619999877,455.5624844999984,461.54853800000274,461.54854809999233,461.5608065999986,461.5608065999986,468.8488509000017,468.8488509000017,468.7069741000014,468.84270090000064,468.8488509000017,468.8488509000017,469.50711999999476,5,0.6576892000011867,None,469.5074258999957,469.5551007999893,469.5551007999893,469.5551007999893,469.5551007999893,469.5551007999893,469.5551007999893,469.5551007999893,469.5551007999893,474.6802819000004,None,"['1', '1']","[4.451227000012295, 5.083306000000448]","[None, None]",474.68052939999325,474.6914090999926,474.6914090999926,474.6914090999926,479.68903509998927,,,,,,,,,,,,,,Plt2_Run1,001,2024-02-15_16h00.48.271,AdvTask_fMRI_masculinePronouns,2023.2.2,59.912850764540465,2024-02-15 16h00.59.705340 -0500,
1000,WhiteFemale_InGrp,Becky,Emma,17,STR,A contending gladiator stands in front of the duo.,Becky charges the gladiator and swings with all her strength.,Becky breaks through the gladiator’s attempt to block the attack. She defeats them in a single strike.,Becky bashes the gladiator defeating them but suffers a counterattack in the process. She suffers damage.,Becky,6,,,,,0,0,0,0,0,16,16,16,479.70658929999627,,,,,,,,,,,,,,,,,,,,,,,,,,,,,,,,,,,,,,,,,,,,,,,,,,,,,,,,,,,,,,,,,,,,,,,,,,,,,,,,,,,479.68939410000166,479.70658929999627,479.70658929999627,480.5070604999928,5,0.799790099990787,None,480.5073865000013,480.5532217,486.55081859999336,486.550828499996,486.5620671999932,486.5620671999932,492.7968109999929,492.7968109999929,492.65567510000255,492.7910880999989,492.7968109999929,492.7968109999929,493.50698310000007,5,0.7095448999898508,None,493.5072849999997,493.554638799993,493.554638799993,493.554638799993,493.554638799993,493.554638799993,493.554638799993,493.554638799993,493.554638799993,495.57240819999424,"['2', '2']",None,,,495.57266959999106,495.5906622999901,495.5906622999901,495.5906622999901,500.57334259999334,,,,"[1.1498317000077805, 1.9259395000117365]","[0.0009685999975772575, 0.00083710000035353]",,,,,,,,,Plt2_Run1,001,2024-02-15_16h00.48.271,AdvTask_fMRI_masculinePronouns,2023.2.2,59.912850764540465,2024-02-15 16h00.59.705340 -0500,
1000,WhiteFemale_InGrp,Becky,Emma,,,,,,,,,,,,,0,0,0,0,,,,,,,,,,,,,,,,,,,,,,,,,,,,,,,,,,,,,,,,,,,,,,,,,,,,,,,,,,,,,,,,,,,,,,,,,,,,,,,,,,,,,,,,,,,,,,,,,,,,,,,,,,,,,,,,,,,,,,,,,,,,,,,,,,,,,,,,,,,,,,,Plt2_Run1,001,2024-02-15_16h00.48.271,AdvTask_fMRI_masculinePronouns,2023.2.2,59.912850764540465,2024-02-15 16h00.59.705340 -0500,
,,,,,,,,,,,,,,,,,,,,,,,,,,,,,,,,,,,,,,,,,,,,,,,,,,,,,,,,,,,,,,,,,,,,,,,,,,,,,,,,,,,,,,,,,,,,,,,,,,,,,,,,,,,,,,,,,,,,,,,,,,,,,,,,,,,,,,,,,,,,,,,,,,,,,,,,,,500.57343199999013,500.58992529999523,500.58992529999523,500.58992529999523,506.18884000000253,1,5.598530199989909,None,Plt2_Run1,001,2024-02-15_16h00.48.271,AdvTask_fMRI_masculinePronouns,2023.2.2,59.912850764540465,2024-02-15 16h00.59.705340 -0500,
,,,,,,,,,,,,,,,,,,,,,,,,,,,,,,,,,,,,,,,,,,,,,,,,,,,,,,,,,,,,,,,,,,,,506.18887859999086,506.2332197999931,,522.1901203000016,,,,,,,,,,,,,,,,,,,,,,,,,,,,,,,,,,,,,,,,,,,,,,,,,,,,,,,,,,,,,,,,,,,,,,,,,,,,,,,,,,,,,,,,,,,,,,,,,,
